Folder: python/学术相关

Note: README.md
用于保存一些自己的Python相关的零碎代码的地方，按照目录分类保存。

File: 122004-pre.txt
Dec. 20, 2017   15:27:29
Multi-Potential Steps
File: 122004-pre
Data Source:  Experiment
Instrument Model:  CHI760E
Ref. Electrode:
Header:
Note:

E1 (V) = -0.5
T1 (s) = 300
Cycle = 1
Sample Interval (s) = 0.008
Quiet Time (sec) = 2
Sensitivity (A/V) = 0.001

Time/sec, Current/A

8.000e-3, -2.229e-3
1.008e+0, -1.655e-4
2.008e+0, -1.132e-4
3.008e+0, -9.109e-5
4.008e+0, -7.784e-5
5.008e+0, -6.893e-5
6.008e+0, -6.231e-5
7.008e+0, -5.715e-5
8.008e+0, -5.299e-5
9.008e+0, -4.961e-5
1.001e+1, -4.672e-5
1.101e+1, -4.428e-5
1.201e+1, -4.226e-5
1.301e+1, -4.049e-5
1.401e+1, -3.883e-5
1.501e+1, -3.738e-5
1.601e+1, -3.616e-5
1.701e+1, -3.494e-5
1.801e+1, -3.405e-5
1.901e+1, -3.295e-5
2.001e+1, -3.149e-5
2.101e+1, -3.140e-5
2.201e+1, -3.063e-5
2.301e+1, -3.004e-5
2.401e+1, -2.956e-5
2.501e+1, -2.877e-5
2.601e+1, -2.845e-5
2.701e+1, -2.795e-5
2.801e+1, -2.742e-5
2.901e+1, -2.710e-5
3.001e+1, -2.673e-5
3.101e+1, -2.635e-5
3.201e+1, -2.600e-5
3.301e+1, -2.589e-5
3.401e+1, -2.562e-5
3.501e+1, -2.525e-5
3.601e+1, -2.515e-5
3.701e+1, -2.472e-5
3.801e+1, -2.441e-5
3.901e+1, -2.426e-5
4.001e+1, -2.412e-5
4.101e+1, -2.390e-5
4.201e+1, -2.359e-5
4.301e+1, -2.337e-5
4.401e+1, -2.307e-5
4.501e+1, -2.295e-5
4.601e+1, -2.283e-5
4.701e+1, -2.251e-5
4.801e+1, -2.247e-5
4.901e+1, -2.210e-5
5.001e+1, -2.199e-5
5.101e+1, -2.178e-5
5.201e+1, -2.165e-5
5.301e+1, -2.152e-5
5.401e+1, -2.142e-5
5.501e+1, -2.114e-5
5.601e+1, -2.123e-5
5.701e+1, -2.120e-5
5.801e+1, -2.110e-5
5.901e+1, -2.108e-5
6.001e+1, -2.093e-5
6.101e+1, -2.081e-5
6.201e+1, -2.073e-5
6.301e+1, -2.069e-5
6.401e+1, -2.074e-5
6.501e+1, -2.067e-5
6.601e+1, -2.071e-5
6.701e+1, -2.061e-5
6.801e+1, -2.053e-5
6.901e+1, -2.047e-5
7.001e+1, -2.037e-5
7.101e+1, -2.026e-5
7.201e+1, -2.026e-5
7.301e+1, -2.047e-5
7.401e+1, -1.829e-5
7.501e+1, -2.011e-5
7.601e+1, -2.030e-5
7.701e+1, -2.014e-5
7.801e+1, -2.008e-5
7.901e+1, -2.009e-5
8.001e+1, -1.995e-5
8.101e+1, -1.991e-5
8.201e+1, -1.982e-5
8.301e+1, -1.986e-5
8.401e+1, -1.969e-5
8.501e+1, -1.967e-5
8.601e+1, -1.963e-5
8.701e+1, -1.949e-5
8.801e+1, -1.953e-5
8.901e+1, -1.936e-5
9.001e+1, -1.940e-5
9.101e+1, -1.902e-5
9.201e+1, -1.952e-5
9.301e+1, -1.927e-5
9.401e+1, -1.940e-5
9.501e+1, -1.919e-5
9.601e+1, -1.917e-5
9.701e+1, -1.924e-5
9.801e+1, -1.914e-5
9.901e+1, -1.907e-5
1.000e+2, -1.902e-5
1.010e+2, -1.917e-5
1.020e+2, -1.909e-5
1.030e+2, -1.910e-5
1.040e+2, -1.906e-5
1.050e+2, -1.905e-5
1.060e+2, -1.902e-5
1.070e+2, -1.903e-5
1.080e+2, -1.898e-5
1.090e+2, -1.903e-5
1.100e+2, -1.900e-5
1.110e+2, -1.899e-5
1.120e+2, -1.892e-5
1.130e+2, -1.896e-5
1.140e+2, -1.897e-5
1.150e+2, -1.894e-5
1.160e+2, -1.881e-5
1.170e+2, -1.889e-5
1.180e+2, -1.890e-5
1.190e+2, -1.888e-5
1.200e+2, -1.877e-5
1.210e+2, -1.879e-5
1.220e+2, -1.875e-5
1.230e+2, -1.889e-5
1.240e+2, -1.893e-5
1.250e+2, -1.883e-5
1.260e+2, -1.857e-5
1.270e+2, -1.878e-5
1.280e+2, -1.876e-5
1.290e+2, -1.846e-5
1.300e+2, -1.856e-5
1.310e+2, -1.834e-5
1.320e+2, -1.856e-5
1.330e+2, -1.849e-5
1.340e+2, -1.844e-5
1.350e+2, -1.830e-5
1.360e+2, -1.837e-5
1.370e+2, -1.838e-5
1.380e+2, -1.804e-5
1.390e+2, -1.824e-5
1.400e+2, -1.832e-5
1.410e+2, -1.834e-5
1.420e+2, -1.840e-5
1.430e+2, -1.838e-5
1.440e+2, -1.844e-5
1.450e+2, -1.846e-5
1.460e+2, -1.843e-5
1.470e+2, -1.853e-5
1.480e+2, -1.858e-5
1.490e+2, -1.865e-5
1.500e+2, -1.866e-5
1.510e+2, -1.870e-5
1.520e+2, -1.868e-5
1.530e+2, -1.870e-5
1.540e+2, -1.869e-5
1.550e+2, -1.868e-5
1.560e+2, -1.861e-5
1.570e+2, -1.858e-5
1.580e+2, -1.855e-5
1.590e+2, -1.853e-5
1.600e+2, -1.849e-5
1.610e+2, -1.842e-5
1.620e+2, -1.840e-5
1.630e+2, -1.830e-5
1.640e+2, -1.827e-5
1.650e+2, -1.824e-5
1.660e+2, -1.820e-5
1.670e+2, -1.821e-5
1.680e+2, -1.818e-5
1.690e+2, -1.818e-5
1.700e+2, -1.813e-5
1.710e+2, -1.815e-5
1.720e+2, -1.816e-5
1.730e+2, -1.822e-5
1.740e+2, -1.823e-5
1.750e+2, -1.832e-5
1.760e+2, -1.834e-5
1.770e+2, -1.831e-5
1.780e+2, -1.844e-5
1.790e+2, -1.847e-5
1.800e+2, -1.856e-5
1.810e+2, -1.848e-5
1.820e+2, -1.843e-5
1.830e+2, -1.847e-5
1.840e+2, -1.845e-5
1.850e+2, -1.848e-5
1.860e+2, -1.842e-5
1.870e+2, -1.830e-5
1.880e+2, -1.838e-5
1.890e+2, -1.836e-5
1.900e+2, -1.823e-5
1.910e+2, -1.822e-5
1.920e+2, -1.805e-5
1.930e+2, -1.810e-5
1.940e+2, -1.805e-5
1.950e+2, -1.812e-5
1.960e+2, -1.803e-5
1.970e+2, -1.791e-5
1.980e+2, -1.802e-5
1.990e+2, -1.803e-5
2.000e+2, -1.788e-5
2.010e+2, -1.798e-5
2.020e+2, -1.809e-5
2.030e+2, -1.808e-5
2.040e+2, -1.820e-5
2.050e+2, -1.822e-5
2.060e+2, -1.828e-5
2.070e+2, -1.833e-5
2.080e+2, -1.832e-5
2.090e+2, -1.836e-5
2.100e+2, -1.836e-5
2.110e+2, -1.833e-5
2.120e+2, -1.838e-5
2.130e+2, -1.841e-5
2.140e+2, -1.830e-5
2.150e+2, -1.820e-5
2.160e+2, -1.821e-5
2.170e+2, -1.816e-5
2.180e+2, -1.803e-5
2.190e+2, -1.805e-5
2.200e+2, -1.797e-5
2.210e+2, -1.803e-5
2.220e+2, -1.789e-5
2.230e+2, -1.788e-5
2.240e+2, -1.795e-5
2.250e+2, -1.789e-5
2.260e+2, -1.798e-5
2.270e+2, -1.797e-5
2.280e+2, -1.796e-5
2.290e+2, -1.798e-5
2.300e+2, -1.799e-5
2.310e+2, -1.808e-5
2.320e+2, -1.807e-5
2.330e+2, -1.800e-5
2.340e+2, -1.818e-5
2.350e+2, -1.816e-5
2.360e+2, -1.833e-5
2.370e+2, -1.821e-5
2.380e+2, -1.822e-5
2.390e+2, -1.819e-5
2.400e+2, -1.834e-5
2.410e+2, -1.823e-5
2.420e+2, -1.815e-5
2.430e+2, -1.813e-5
2.440e+2, -1.815e-5
2.450e+2, -1.811e-5
2.460e+2, -1.803e-5
2.470e+2, -1.800e-5
2.480e+2, -1.794e-5
2.490e+2, -1.793e-5
2.500e+2, -1.787e-5
2.510e+2, -1.783e-5
2.520e+2, -1.784e-5
2.530e+2, -1.776e-5
2.540e+2, -1.770e-5
2.550e+2, -1.782e-5
2.560e+2, -1.779e-5
2.570e+2, -1.779e-5
2.580e+2, -1.777e-5
2.590e+2, -1.783e-5
2.600e+2, -1.782e-5
2.610e+2, -1.797e-5
2.620e+2, -1.839e-5
2.630e+2, -1.845e-5
2.640e+2, -1.661e-5
2.650e+2, -1.804e-5
2.660e+2, -1.804e-5
2.670e+2, -1.806e-5
2.680e+2, -1.813e-5
2.690e+2, -1.809e-5
2.700e+2, -1.813e-5
2.710e+2, -1.807e-5
2.720e+2, -1.804e-5
2.730e+2, -1.803e-5
2.740e+2, -1.795e-5
2.750e+2, -1.785e-5
2.760e+2, -1.799e-5
2.770e+2, -1.781e-5
2.780e+2, -1.774e-5
2.790e+2, -1.772e-5
2.800e+2, -1.767e-5
2.810e+2, -1.774e-5
2.820e+2, -1.763e-5
2.830e+2, -1.762e-5
2.840e+2, -1.764e-5
2.850e+2, -1.759e-5
2.860e+2, -1.772e-5
2.870e+2, -1.769e-5
2.880e+2, -1.770e-5
2.890e+2, -1.781e-5
2.900e+2, -1.779e-5
2.910e+2, -1.785e-5
2.920e+2, -1.795e-5
2.930e+2, -1.790e-5
2.940e+2, -1.795e-5
2.950e+2, -1.787e-5
2.960e+2, -1.803e-5
2.970e+2, -1.795e-5
2.980e+2, -1.802e-5
2.990e+2, -1.788e-5
3.000e+2, -1.763e-5